{
  "resourceType": "Bundle",
  "type": "transaction",
  "entry": [
    {
      "resource": {
        "resourceType": "Patient",
        "id": "61870b51-fe95-4b86-ba01-1ba43c0a7f2f",
        "meta": {
          "profile": [
            "http://hl7.org/fhir/us/core/StructureDefinition/us-core-patient"
          ]
        },
        "name": [
          {
            "family": "Smith",
            "given": [
              "Alice"
            ]
          }
        ],
        "gender": "female",
        "birthDate": "1985-05-05"
      },
      "request": {
        "method": "POST",
        "url": "Patient"
      }
    },
    {
      "resource": {
        "resourceType": "Coverage",
        "id": "27ff5a55-f7fd-4f71-8e7d-c79bc0f78339",
        "status": "active",
        "kind": "insurance",
        "type": {
          "coding": [
            {
              "code": "plan"
            }
          ]
        },
        "beneficiary": {
          "reference": "Patient/61870b51-fe95-4b86-ba01-1ba43c0a7f2f"
        }
      },
      "request": {
        "method": "POST",
        "url": "Coverage"
      }
    },
    {
      "resource": {
        "resourceType": "ExplanationOfBenefit",
        "id": "9432a5f4-6f0c-4f60-a88c-540c8bd348d8",
        "status": "active",
        "type": {
          "coding": [
            {
              "code": "professional"
            }
          ]
        },
        "use": "claim",
        "patient": {
          "reference": "Patient/61870b51-fe95-4b86-ba01-1ba43c0a7f2f"
        },
        "created": "2025-12-10T00:00:00",
        "outcome": "completed",
        "insurance": [
          {
            "focal": true,
            "coverage": {
              "reference": "Coverage/27ff5a55-f7fd-4f71-8e7d-c79bc0f78339"
            }
          }
        ]
      },
      "request": {
        "method": "POST",
        "url": "ExplanationOfBenefit"
      }
    }
  ]
}