{
  "resourceType": "Bundle",
  "type": "transaction",
  "entry": [
    {
      "resource": {
        "resourceType": "Patient",
        "id": "f61363ad-e181-48f3-8c48-113d34119cef",
        "meta": {
          "profile": [
            "http://hl7.org/fhir/us/core/StructureDefinition/us-core-patient"
          ]
        },
        "name": [
          {
            "family": "Smith",
            "given": [
              "Alice"
            ]
          }
        ],
        "gender": "female",
        "birthDate": "1985-05-05"
      },
      "request": {
        "method": "POST",
        "url": "Patient"
      }
    },
    {
      "resource": {
        "resourceType": "Coverage",
        "id": "7c3d1836-ba02-4755-8469-3df9dbec596e",
        "status": "active",
        "kind": "insurance",
        "type": {
          "coding": [
            {
              "code": "plan"
            }
          ]
        },
        "beneficiary": {
          "reference": "Patient/f61363ad-e181-48f3-8c48-113d34119cef"
        }
      },
      "request": {
        "method": "POST",
        "url": "Coverage"
      }
    },
    {
      "resource": {
        "resourceType": "ExplanationOfBenefit",
        "id": "ef8d10c7-2e40-4b2b-8794-b5b623cf9bb9",
        "status": "active",
        "type": {
          "coding": [
            {
              "code": "professional"
            }
          ]
        },
        "use": "claim",
        "patient": {
          "reference": "Patient/f61363ad-e181-48f3-8c48-113d34119cef"
        },
        "created": "2025-08-01T00:00:00",
        "outcome": "completed",
        "insurance": [
          {
            "focal": true,
            "coverage": {
              "reference": "Coverage/7c3d1836-ba02-4755-8469-3df9dbec596e"
            }
          }
        ]
      },
      "request": {
        "method": "POST",
        "url": "ExplanationOfBenefit"
      }
    }
  ]
}