{
  "resourceType": "Bundle",
  "type": "transaction",
  "entry": [
    {
      "resource": {
        "resourceType": "Patient",
        "id": "69c4a818-3c02-4ab6-bc89-cd785b33f351",
        "name": [
          {
            "given": [
              "John"
            ],
            "family": "Doe"
          }
        ],
        "gender": "male",
        "birthDate": "1980-01-01"
      },
      "request": {
        "method": "POST",
        "url": "Patient"
      }
    },
    {
      "resource": {
        "resourceType": "Coverage",
        "id": "9ba79d3e-f9d1-4ba1-8279-36a396cec6ce",
        "status": "active",
        "type": {
          "coding": [
            {
              "code": "plan"
            }
          ]
        },
        "beneficiary": {
          "reference": "Patient/69c4a818-3c02-4ab6-bc89-cd785b33f351"
        }
      },
      "request": {
        "method": "POST",
        "url": "Coverage"
      }
    },
    {
      "resource": {
        "resourceType": "ExplanationOfBenefit",
        "id": "cd9d9d5c-a8c1-436b-8edd-9f28cdffc1c4",
        "status": "active",
        "type": {
          "coding": [
            {
              "code": "professional"
            }
          ]
        },
        "patient": {
          "reference": "Patient/69c4a818-3c02-4ab6-bc89-cd785b33f351"
        },
        "insurance": [
          {
            "coverage": {
              "reference": "Coverage/9ba79d3e-f9d1-4ba1-8279-36a396cec6ce"
            }
          }
        ]
      },
      "request": {
        "method": "POST",
        "url": "ExplanationOfBenefit"
      }
    },
    {
      "resource": {
        "resourceType": "Patient",
        "id": "05dc5db5-423f-4406-86e7-2e8feaaa648c",
        "name": [
          {
            "given": [
              "Jane"
            ],
            "family": "Smith"
          }
        ],
        "gender": "female",
        "birthDate": "1975-03-22"
      },
      "request": {
        "method": "POST",
        "url": "Patient"
      }
    },
    {
      "resource": {
        "resourceType": "Coverage",
        "id": "0572b882-3533-439a-b831-5d017d767944",
        "status": "active",
        "type": {
          "coding": [
            {
              "code": "group"
            }
          ]
        },
        "beneficiary": {
          "reference": "Patient/05dc5db5-423f-4406-86e7-2e8feaaa648c"
        }
      },
      "request": {
        "method": "POST",
        "url": "Coverage"
      }
    },
    {
      "resource": {
        "resourceType": "ExplanationOfBenefit",
        "id": "b9748973-98ef-4115-a428-37885c518765",
        "status": "active",
        "type": {
          "coding": [
            {
              "code": "pharmacy"
            }
          ]
        },
        "patient": {
          "reference": "Patient/05dc5db5-423f-4406-86e7-2e8feaaa648c"
        },
        "insurance": [
          {
            "coverage": {
              "reference": "Coverage/0572b882-3533-439a-b831-5d017d767944"
            }
          }
        ]
      },
      "request": {
        "method": "POST",
        "url": "ExplanationOfBenefit"
      }
    }
  ]
}