{
  "resourceType": "Bundle",
  "type": "transaction",
  "entry": [
    {
      "resource": {
        "resourceType": "Patient",
        "id": "c64fa230-edb2-47e8-8439-ac06d132e6c6",
        "name": [
          {
            "given": [
              "John"
            ],
            "family": "Doe"
          }
        ],
        "gender": "male",
        "birthDate": "1980-01-01"
      },
      "request": {
        "method": "POST",
        "url": "Patient"
      }
    },
    {
      "resource": {
        "resourceType": "Coverage",
        "id": "3cf23173-8626-435c-a6ec-422640d73257",
        "status": "active",
        "type": {
          "coding": [
            {
              "code": "plan"
            }
          ]
        },
        "beneficiary": {
          "reference": "Patient/c64fa230-edb2-47e8-8439-ac06d132e6c6"
        }
      },
      "request": {
        "method": "POST",
        "url": "Coverage"
      }
    },
    {
      "resource": {
        "resourceType": "ExplanationOfBenefit",
        "id": "7974a2d4-125c-4055-88a4-ddc0dcb64263",
        "status": "active",
        "type": {
          "coding": [
            {
              "code": "professional"
            }
          ]
        },
        "patient": {
          "reference": "Patient/c64fa230-edb2-47e8-8439-ac06d132e6c6"
        },
        "insurance": [
          {
            "coverage": {
              "reference": "Coverage/3cf23173-8626-435c-a6ec-422640d73257"
            }
          }
        ]
      },
      "request": {
        "method": "POST",
        "url": "ExplanationOfBenefit"
      }
    },
    {
      "resource": {
        "resourceType": "Patient",
        "id": "0b0f4232-19ea-41c4-851d-eacfe2ae82d0",
        "name": [
          {
            "given": [
              "Jane"
            ],
            "family": "Smith"
          }
        ],
        "gender": "female",
        "birthDate": "1975-03-22"
      },
      "request": {
        "method": "POST",
        "url": "Patient"
      }
    },
    {
      "resource": {
        "resourceType": "Coverage",
        "id": "936da4c3-46cc-4d53-baa6-d10273ff8e08",
        "status": "active",
        "type": {
          "coding": [
            {
              "code": "group"
            }
          ]
        },
        "beneficiary": {
          "reference": "Patient/0b0f4232-19ea-41c4-851d-eacfe2ae82d0"
        }
      },
      "request": {
        "method": "POST",
        "url": "Coverage"
      }
    },
    {
      "resource": {
        "resourceType": "ExplanationOfBenefit",
        "id": "9d434aa3-c23a-426b-95df-efb5029cbbf0",
        "status": "active",
        "type": {
          "coding": [
            {
              "code": "pharmacy"
            }
          ]
        },
        "patient": {
          "reference": "Patient/0b0f4232-19ea-41c4-851d-eacfe2ae82d0"
        },
        "insurance": [
          {
            "coverage": {
              "reference": "Coverage/936da4c3-46cc-4d53-baa6-d10273ff8e08"
            }
          }
        ]
      },
      "request": {
        "method": "POST",
        "url": "ExplanationOfBenefit"
      }
    }
  ]
}